word,color,stim_cond,correct_res,trials.thisRepN,trials.thisTrialN,trials.thisN,trials.thisIndex,thisRow.t,notes,ins.started,text_2.started,ins.stopped,trial.started,fixation.started,fixation.stopped,text.started,key_resp.started,trial.stopped,key_resp.keys,key_resp.corr,key_resp.rt,key_resp.duration,thanks.started,text_3.started,text_3.stopped,thanks.stopped,participant,session,date,expName,psychopyVersion,frameRate,expStart
RED,red,C,r,0,2,2,0,5.7873173,,,,,5.7751628,5.7873173,6.2871274,6.2871274,6.2871274,8.2241008,r,1,1.9200637,None,,,,,243040,1,2024-08-16_11h52.19.975,strooptask,2024.1.5,None,2024-08-16 11h52.29.329589 +0530
BLUE,blue,C,b,0,3,3,3,8.2395745,,,,,8.2261443,8.2395745,8.7385331,8.7385331,8.7385331,9.5076794,b,1,0.7539684,None,,,,,243040,1,2024-08-16_11h52.19.975,strooptask,2024.1.5,None,2024-08-16 11h52.29.329589 +0530
BLUE,blue,C,b,1,0,4,3,9.5220576,,,,,9.5097052,9.5220576,10.0223418,10.0223418,10.0223418,10.6580087,b,1,0.6254386,None,,,,,243040,1,2024-08-16_11h52.19.975,strooptask,2024.1.5,None,2024-08-16 11h52.29.329589 +0530
RED,red,C,r,1,1,5,0,10.6738192,,,,,10.6600304,10.6738192,11.1726983,11.1726983,11.1726983,12.1742411,r,1,0.9885918,None,,,,,243040,1,2024-08-16_11h52.19.975,strooptask,2024.1.5,None,2024-08-16 11h52.29.329589 +0530
BLUE,blue,C,b,2,2,10,3,18.0603082,,,,,18.0464681,18.0603082,18.5589564,18.5589564,18.5589564,19.444584,b,1,0.8685305,None,,,,,243040,1,2024-08-16_11h52.19.975,strooptask,2024.1.5,None,2024-08-16 11h52.29.329589 +0530
RED,red,C,r,2,3,11,0,19.4598255,,,,,19.4466065,19.4598255,19.9594519,19.9594519,19.9594519,20.7285485,r,1,0.7520634,None,,,,,243040,1,2024-08-16_11h52.19.975,strooptask,2024.1.5,None,2024-08-16 11h52.29.329589 +0530
BLUE,blue,C,b,3,2,14,3,24.2124131,,,,,24.1986075,24.2124131,24.7112028,24.7112028,24.7112028,25.1803812,b,1,0.465004,None,,,,,243040,1,2024-08-16_11h52.19.975,strooptask,2024.1.5,None,2024-08-16 11h52.29.329589 +0530
RED,red,C,r,3,3,15,0,25.1963341,,,,,25.1824393,25.1963341,25.69503,25.69503,25.69503,26.1972077,r,1,0.4915898,None,,,,,243040,1,2024-08-16_11h52.19.975,strooptask,2024.1.5,None,2024-08-16 11h52.29.329589 +0530
BLUE,blue,C,b,4,1,17,3,27.1964743,,,,,27.1830714,27.1964743,27.6956948,27.6956948,27.6956948,28.2650724,b,1,0.5657821,None,,,,,243040,1,2024-08-16_11h52.19.975,strooptask,2024.1.5,None,2024-08-16 11h52.29.329589 +0530
RED,red,C,r,4,2,18,0,28.280824,,,,,28.2670875,28.280824,28.7794608,28.7794608,28.7794608,29.148401,b,0,0.351923,None,,,,,243040,1,2024-08-16_11h52.19.975,strooptask,2024.1.5,None,2024-08-16 11h52.29.329589 +0530
RED,red,C,r,5,0,20,0,30.3982414,,,,,30.3842147,30.3982414,30.8969633,30.8969633,30.8969633,31.5831701,r,1,0.6832606,None,,,,,243040,1,2024-08-16_11h52.19.975,strooptask,2024.1.5,None,2024-08-16 11h52.29.329589 +0530
BLUE,blue,C,b,5,1,21,3,31.5998235,,,,,31.5851827,31.5998235,32.0973922,32.0973922,32.0973922,32.5830835,b,1,0.4714491,None,,,,,243040,1,2024-08-16_11h52.19.975,strooptask,2024.1.5,None,2024-08-16 11h52.29.329589 +0530
RED,red,C,r,6,0,24,0,35.4327564,,,,,35.4195724,35.4327564,35.9321353,35.9321353,35.9321353,36.567957,r,1,0.6185628,None,,,,,243040,1,2024-08-16_11h52.19.975,strooptask,2024.1.5,None,2024-08-16 11h52.29.329589 +0530
BLUE,blue,C,b,6,1,25,3,36.5834258,,,,,36.5699808,36.5834258,37.082644,37.082644,37.082644,37.5517227,b,1,0.4637435,None,,,,,243040,1,2024-08-16_11h52.19.975,strooptask,2024.1.5,None,2024-08-16 11h52.29.329589 +0530
BLUE,blue,C,b,7,0,28,3,41.0530096,,,,,41.0391571,41.0530096,41.5509526,41.5509526,41.5509526,44.1374947,b,1,2.5733567,None,,,,,243040,1,2024-08-16_11h52.19.975,strooptask,2024.1.5,None,2024-08-16 11h52.29.329589 +0530
RED,red,C,r,7,1,29,0,44.153319,,,,,44.1395228,44.153319,44.6521158,44.6521158,44.6521158,45.454652,r,1,0.7895549,None,,,,,243040,1,2024-08-16_11h52.19.975,strooptask,2024.1.5,None,2024-08-16 11h52.29.329589 +0530
BLUE,blue,C,b,8,0,32,3,48.1201051,,,,,48.1077072,48.1201051,48.6203357,48.6203357,48.6203357,49.2228915,b,1,0.5976671,None,,,,,243040,1,2024-08-16_11h52.19.975,strooptask,2024.1.5,None,2024-08-16 11h52.29.329589 +0530
RED,red,C,r,8,1,33,0,49.2388556,,,,,49.2249052,49.2388556,49.7374072,49.7374072,49.7374072,50.373305,r,1,0.632622,None,,,,,243040,1,2024-08-16_11h52.19.975,strooptask,2024.1.5,None,2024-08-16 11h52.29.329589 +0530
BLUE,blue,C,b,9,2,38,3,56.8568406,,,,,56.845285,56.8568406,57.3569907,57.3569907,57.3569907,58.0764304,b,1,0.710913,None,,,,,243040,1,2024-08-16_11h52.19.975,strooptask,2024.1.5,None,2024-08-16 11h52.29.329589 +0530
RED,red,C,r,9,3,39,0,58.0921007,,,,,58.0784913,58.0921007,58.5908247,58.5908247,58.5908247,59.2099707,r,1,0.6100598,None,,,,,243040,1,2024-08-16_11h52.19.975,strooptask,2024.1.5,None,2024-08-16 11h52.29.329589 +0530
BLUE,red,I,r,0,0,0,2,1.0539398,,,,,1.0233525,1.0539398,1.5023714,1.5023714,1.5023714,2.74635,b,0,1.2280986,None,,,,,243040,1,2024-08-16_11h52.19.975,strooptask,2024.1.5,None,2024-08-16 11h52.29.329589 +0530
RED,blue,I,b,0,1,1,1,2.7708273,,,,,2.7488679,2.7708273,3.253058,3.253058,3.253058,5.7731169,b,1,2.5109253,None,,,,,243040,1,2024-08-16_11h52.19.975,strooptask,2024.1.5,None,2024-08-16 11h52.29.329589 +0530
BLUE,red,I,r,1,2,6,2,12.1895496,,,,,12.1753168,12.1895496,12.6900065,12.6900065,12.6900065,13.4757781,r,1,0.7716965,None,,,,,243040,1,2024-08-16_11h52.19.975,strooptask,2024.1.5,None,2024-08-16 11h52.29.329589 +0530
RED,blue,I,b,1,3,7,1,13.4911503,,,,,13.4777959,13.4911503,13.9904393,13.9904393,13.9904393,14.7763449,b,1,0.7826538,None,,,,,243040,1,2024-08-16_11h52.19.975,strooptask,2024.1.5,None,2024-08-16 11h52.29.329589 +0530
BLUE,red,I,r,2,0,8,2,14.7923194,,,,,14.7783906,14.7923194,15.2909318,15.2909318,15.2909318,16.0769331,r,1,0.7760719,None,,,,,243040,1,2024-08-16_11h52.19.975,strooptask,2024.1.5,None,2024-08-16 11h52.29.329589 +0530
RED,blue,I,b,2,1,9,1,16.0928268,,,,,16.078948,16.0928268,16.5914232,16.5914232,16.5914232,18.0444227,b,1,1.4438459,None,,,,,243040,1,2024-08-16_11h52.19.975,strooptask,2024.1.5,None,2024-08-16 11h52.29.329589 +0530
BLUE,red,I,r,3,0,12,2,20.7443973,,,,,20.7305682,20.7443973,21.243235,21.243235,21.243235,22.5952858,r,1,1.3455557,None,,,,,243040,1,2024-08-16_11h52.19.975,strooptask,2024.1.5,None,2024-08-16 11h52.29.329589 +0530
RED,blue,I,b,3,1,13,1,22.6103964,,,,,22.5966036,22.6103964,23.1105698,23.1105698,23.1105698,24.1965705,b,1,1.0734492,None,,,,,243040,1,2024-08-16_11h52.19.975,strooptask,2024.1.5,None,2024-08-16 11h52.29.329589 +0530
RED,blue,I,b,4,0,16,1,26.2118486,,,,,26.199222,26.2118486,26.7119696,26.7119696,26.7119696,27.1810628,r,0,0.4533623,None,,,,,243040,1,2024-08-16_11h52.19.975,strooptask,2024.1.5,None,2024-08-16 11h52.29.329589 +0530
BLUE,red,I,r,4,3,19,2,29.1637988,,,,,29.1504206,29.1637988,29.6631321,29.6631321,29.6631321,30.3821788,b,0,0.7124262,None,,,,,243040,1,2024-08-16_11h52.19.975,strooptask,2024.1.5,None,2024-08-16 11h52.29.329589 +0530
RED,blue,I,b,5,2,22,1,32.5983973,,,,,32.5850797,32.5983973,33.0977929,33.0977929,33.0977929,34.150384,r,0,1.0480167,None,,,,,243040,1,2024-08-16_11h52.19.975,strooptask,2024.1.5,None,2024-08-16 11h52.29.329589 +0530
BLUE,red,I,r,5,3,23,2,34.1663042,,,,,34.1524098,34.1663042,34.6650341,34.6650341,34.6650341,35.4175421,r,1,0.7368372,None,,,,,243040,1,2024-08-16_11h52.19.975,strooptask,2024.1.5,None,2024-08-16 11h52.29.329589 +0530
BLUE,red,I,r,6,2,26,2,37.5660789,,,,,37.5537313,37.5660789,38.0663539,38.0663539,38.0663539,39.0188181,r,1,0.9462868,None,,,,,243040,1,2024-08-16_11h52.19.975,strooptask,2024.1.5,None,2024-08-16 11h52.29.329589 +0530
RED,blue,I,b,6,3,27,1,39.034539,,,,,39.0208304,39.034539,39.5335317,39.5335317,39.5335317,41.0371497,b,1,1.5003752,None,,,,,243040,1,2024-08-16_11h52.19.975,strooptask,2024.1.5,None,2024-08-16 11h52.29.329589 +0530
RED,blue,I,b,7,2,30,1,45.4691141,,,,,45.4566999,45.4691141,45.9693546,45.9693546,45.9693546,46.4883953,b,1,0.5117179,None,,,,,243040,1,2024-08-16_11h52.19.975,strooptask,2024.1.5,None,2024-08-16 11h52.29.329589 +0530
BLUE,red,I,r,7,3,31,2,46.5041593,,,,,46.4903895,46.5041593,47.003069,47.003069,47.003069,48.1056683,r,1,1.0865198,None,,,,,243040,1,2024-08-16_11h52.19.975,strooptask,2024.1.5,None,2024-08-16 11h52.29.329589 +0530
BLUE,red,I,r,8,2,34,2,50.3893364,,,,,50.3753294,50.3893364,50.8879037,50.8879037,50.8879037,51.4570995,r,1,0.5603923,None,,,,,243040,1,2024-08-16_11h52.19.975,strooptask,2024.1.5,None,2024-08-16 11h52.29.329589 +0530
RED,blue,I,b,8,3,35,1,51.4727548,,,,,51.4591063,51.4727548,51.9716334,51.9716334,51.9716334,52.690769,r,0,0.7118461,None,,,,,243040,1,2024-08-16_11h52.19.975,strooptask,2024.1.5,None,2024-08-16 11h52.29.329589 +0530
RED,blue,I,b,9,0,36,1,52.7052525,,,,,52.6927897,52.7052525,53.2054202,53.2054202,53.2054202,55.3418966,b,1,2.1208415,None,,,,,243040,1,2024-08-16_11h52.19.975,strooptask,2024.1.5,None,2024-08-16 11h52.29.329589 +0530
BLUE,red,I,r,9,1,37,2,55.3571312,,,,,55.3439084,55.3571312,55.8564481,55.8564481,55.8564481,56.8432658,r,1,0.9840278,None,,,,,243040,1,2024-08-16_11h52.19.975,strooptask,2024.1.5,None,2024-08-16 11h52.29.329589 +0530
,,,,,,,,,,0.0028907,0.0066225,1.0024396,,,,,,,,,,,,,,,243040,1,2024-08-16_11h52.19.975,strooptask,2024.1.5,None,2024-08-16 11h52.29.329589 +0530
,,,,,,,MS,,,,,,,,,,,,,,,,59.2114334,59.2243691,60.2247226,60.2092727,243040,1,2024-08-16_11h52.19.975,strooptask,2024.1.5,None,2024-08-16 11h52.29.329589 +0530
,,,meanrt_congruent,,0.79670724,,796.71,,,,,,,,,,,,,,,,,,,,,,,,,,
,,,meanRT_incongruent,,1.065247335,,106.525,,,,,,,,,,,,,,,,,,,,,,,,,,
,,,,,,,,,,,,,,,,,,,,,,,,,,,,,,,,,
,,,stroop_effect,,0.268540095,,,,,,,,,,,,,,,,,,,,,,,,,,,,
