Offset,Order,trials.thisRepN,trials.thisTrialN,trials.thisN,trials.thisIndex,thisRow.t,notes,instructions.started,text.started,text.stopped,instructions.stopped,test_routine.started,sound_stim.started,visual_stim.started,sound_stim.stopped,visual_stim.stopped,test_routine.stopped,respond_now.started,text_2.started,key_resp_2.started,respond_now.stopped,key_resp_2.keys,key_resp_2.rt,key_resp_2.duration,participant,session,date,expName,psychopyVersion,frameRate,expStart,
,,,,,,,,0.0029439000063575804,0.00785239998367615,8.010254499997245,7.994679399998859,,,,,,,,,,,,,,p4,001,2024-12-06_18h38.15.873,soloproj6,2024.1.5,None,2024-12-06 18h38.34.574735 +0530,
1,audio_first,0,0,0,2,8.010254499997245,,,,,,8.000539100001333,8.010831366675363,9.02882999999565,9.02882999999565,10.027909399999771,10.012930700002471,10.012997999991057,10.027909399999771,10.027909399999771,11.03778539999621,s,0.9868832000065595,None,p4,001,2024-12-06_18h38.15.873,soloproj6,2024.1.5,None,2024-12-06 18h38.34.574735 +0530,
3,audio_first,0,1,1,6,11.048157799988985,,,,,,11.03980440000305,11.044958766670122,14.046533999993699,12.045321199984755,15.046670000010636,15.031074500002433,15.031095499987714,15.046670000010636,15.046670000010636,15.69740040000761,s,0.6422446000215132,None,p4,001,2024-12-06_18h38.15.873,soloproj6,2024.1.5,None,2024-12-06 18h38.34.574735 +0530,
0,simulataneous,0,2,2,0,15.713630599988392,,,,,,15.697788199991919,15.713262266657937,15.713630599988392,,16.713669399992796,16.697855100006564,16.697873299999628,16.713669399992796,16.713669399992796,17.898168299987447,b,1.1803502999828197,None,p4,001,2024-12-06_18h38.15.873,soloproj6,2024.1.5,None,2024-12-06 18h38.34.574735 +0530,
1,visual_first,0,3,3,1,17.914571200002683,,,,,,17.89855899999384,18.898352366672285,17.914571200002683,,18.914657399989665,19.868267799989553,19.86833579998347,19.874918199988315,19.874918199988315,20.81751369999256,v,0.9273363999964204,None,p4,001,2024-12-06_18h38.15.873,soloproj6,2024.1.5,None,2024-12-06 18h38.34.574735 +0530,
3,visual_first,0,4,4,5,20.832441600010497,,,,,,20.818939999997383,23.83313186664988,20.832441600010497,,21.8323768999835,24.807341200008523,24.80741469998611,24.816998800000874,24.816998800000874,25.35264569998253,v,0.524946200021077,None,p4,001,2024-12-06_18h38.15.873,soloproj6,2024.1.5,None,2024-12-06 18h38.34.574735 +0530,
2,visual_first,0,5,5,3,25.367580199992517,,,,,,25.35407229998964,27.3678743666717,25.367580199992517,28.36829320000834,26.367525200010277,28.357972199999494,28.358038899983512,28.36829320000834,28.36829320000834,28.77036520000547,s,0.39688340001157485,None,p4,001,2024-12-06_18h38.15.873,soloproj6,2024.1.5,None,2024-12-06 18h38.34.574735 +0530,
2,audio_first,0,6,6,4,28.78512889999547,,,,,,28.771782700001495,28.785076566655576,30.786376700008987,,31.786270299984608,31.77133839999442,31.771401000005426,31.786270299984608,31.786270299984608,34.35642279998865,v,2.567980299994815,None,p4,001,2024-12-06_18h38.15.873,soloproj6,2024.1.5,None,2024-12-06 18h38.34.574735 +0530,
2,visual_first,1,0,7,3,34.37092129999655,,,,,,34.35783269998501,36.3712794666683,34.37092129999655,,35.370907200005604,37.31665580000845,37.316731300001265,37.32392500000424,37.32392500000424,37.87431189999916,v,0.5475498999876436,None,p4,001,2024-12-06_18h38.15.873,soloproj6,2024.1.5,None,2024-12-06 18h38.34.574735 +0530,
2,audio_first,1,1,8,4,37.888661700009834,,,,,,37.875738500006264,37.8886402666724,39.88981530000456,,40.889766499982215,40.874608999991324,40.874672600009944,40.889766499982215,40.889766499982215,41.24192060000496,s,0.33853070001350716,None,p4,001,2024-12-06_18h38.15.873,soloproj6,2024.1.5,None,2024-12-06 18h38.34.574735 +0530,
3,visual_first,1,2,9,5,41.257025600003544,,,,,,41.24333930001012,44.25775596665723,41.257025600003544,45.25811870000325,42.256963499996345,45.24895700000343,45.24903459998313,45.25811870000325,45.25811870000325,45.610414599999785,v,0.34026149997953326,None,p4,001,2024-12-06_18h38.15.873,soloproj6,2024.1.5,None,2024-12-06 18h38.34.574735 +0530,
3,audio_first,1,3,10,6,45.62483419998898,,,,,,45.611957199987955,45.62492366665198,48.62653149999096,,49.62640919999103,49.61133399998653,49.61139639999601,49.62640919999103,49.62640919999103,51.9293420999893,v,2.287952699989546,None,p4,001,2024-12-06_18h38.15.873,soloproj6,2024.1.5,None,2024-12-06 18h38.34.574735 +0530,
1,audio_first,1,4,11,2,51.943920799996704,,,,,,51.93075040000258,51.94405096664947,52.92809259999194,,53.92806089998339,53.91301220000605,53.913096200005384,53.92806089998339,53.92806089998339,56.931393699982436,b,2.995867999998154,None,p4,001,2024-12-06_18h38.15.873,soloproj6,2024.1.5,None,2024-12-06 18h38.34.574735 +0530,
1,visual_first,1,5,12,1,56.94632419999107,,,,,,56.93282009998802,57.94669106667085,56.94632419999107,,57.94634229998337,58.925182899984065,58.925250800006324,58.93199949999689,58.93199949999689,61.24959739999031,v,2.305620600003749,None,p4,001,2024-12-06_18h38.15.873,soloproj6,2024.1.5,None,2024-12-06 18h38.34.574735 +0530,
0,simulataneous,1,6,13,0,61.26460049999878,,,,,,61.251012099994114,61.264281366664605,61.26460049999878,,62.26459299999988,62.25007720000576,62.250138200004585,62.26459299999988,62.26459299999988,63.367504299996654,b,1.093659599981038,None,p4,001,2024-12-06_18h38.15.873,soloproj6,2024.1.5,None,2024-12-06 18h38.34.574735 +0530,
2,audio_first,2,0,14,4,63.381638199993176,,,,,,63.36895559998811,63.3816952666714,65.38287269999273,,66.38291980000213,66.36780829998315,66.3678712999972,66.38291980000213,66.38291980000213,67.2018693999853,s,0.8163559999957215,None,p4,001,2024-12-06_18h38.15.873,soloproj6,2024.1.5,None,2024-12-06 18h38.34.574735 +0530,
1,visual_first,2,1,15,1,67.21687539998675,,,,,,67.20320069999434,68.21732146665842,67.21687539998675,,68.21690739999758,69.18621389998589,69.18628110000282,69.1928595000063,69.1928595000063,69.63636289999704,v,0.43668610000167973,None,p4,001,2024-12-06_18h38.15.873,soloproj6,2024.1.5,None,2024-12-06 18h38.34.574735 +0530,
1,audio_first,2,2,16,2,69.65075199998682,,,,,,69.63778049999382,69.65074486667096,70.66169760000776,70.66169760000776,71.6681971999933,71.65303439999116,71.65309889998753,71.6681971999933,71.6681971999933,71.90432319999672,s,0.2338943999784533,None,p4,001,2024-12-06_18h38.15.873,soloproj6,2024.1.5,None,2024-12-06 18h38.34.574735 +0530,
0,simulataneous,2,3,17,0,71.91877660001046,,,,,,71.90573440000298,71.91828636665402,71.91877660001046,,72.91875379998237,72.9060962999938,72.90615910000633,72.91875379998237,72.91875379998237,73.68768860001,b,0.7567922000016551,None,p4,001,2024-12-06_18h38.15.873,soloproj6,2024.1.5,None,2024-12-06 18h38.34.574735 +0530,
3,visual_first,2,4,18,5,73.70270829999936,,,,,,73.68910250000772,76.70347726665592,73.70270829999936,,74.70267199998489,77.68730230000801,77.6873765999917,77.69441170000937,77.69441170000937,78.08954139999696,v,0.3821596000052523,None,p4,001,2024-12-06_18h38.15.873,soloproj6,2024.1.5,None,2024-12-06 18h38.34.574735 +0530,
2,visual_first,2,5,19,3,78.10442019999027,,,,,,78.09111059998395,80.10470666666903,78.10442019999027,,79.10432730001048,81.0849201999954,81.08499509998364,81.09034269998665,81.09034269998665,81.37419169998611,v,0.280895200005034,None,p4,001,2024-12-06_18h38.15.873,soloproj6,2024.1.5,None,2024-12-06 18h38.34.574735 +0530,
3,audio_first,2,6,20,6,81.388531900011,,,,,,81.37562390000676,81.38872746666699,84.39007229998242,82.38891489998787,85.3901460999914,85.37501069999416,85.37507750000805,85.3901460999914,85.3901460999914,85.7589328000031,s,0.3587258000043221,None,p4,001,2024-12-06_18h38.15.873,soloproj6,2024.1.5,None,2024-12-06 18h38.34.574735 +0530,
0,simulataneous,3,0,21,0,85.77404620000743,,,,,,85.76038399999379,85.77363856666877,85.77404620000743,,86.77397789998213,86.75893300000462,86.75899549998576,86.77397789998213,86.77397789998213,87.1101878999907,b,0.3333307000284549,None,p4,001,2024-12-06_18h38.15.873,soloproj6,2024.1.5,None,2024-12-06 18h38.34.574735 +0530,
3,visual_first,3,1,22,5,87.1245004000084,,,,,,87.11161940000602,90.1252542666664,87.1245004000084,91.12895710000885,88.12450070001069,91.12228889999096,91.12235590000637,91.12895710000885,91.12895710000885,91.41118309999001,v,0.27041760002612136,None,p4,001,2024-12-06_18h38.15.873,soloproj6,2024.1.5,None,2024-12-06 18h38.34.574735 +0530,
3,audio_first,3,2,23,6,91.42571589999716,,,,,,91.41260179999517,91.42585926666312,94.42740980000235,92.42613179999171,95.42744219998713,95.4121230999881,95.41218630000367,95.42744219998713,95.42744219998713,95.71279449999565,s,0.26931449997937307,None,p4,001,2024-12-06_18h38.15.873,soloproj6,2024.1.5,None,2024-12-06 18h38.34.574735 +0530,
2,visual_first,3,3,24,3,95.72780990001047,,,,,,95.71422439999878,97.72813166666698,95.72780990001047,,96.72774689999642,98.68924740000512,98.68931620000512,98.69595229998231,98.69595229998231,100.51459740000428,v,1.809168400010094,None,p4,001,2024-12-06_18h38.15.873,soloproj6,2024.1.5,None,2024-12-06 18h38.34.574735 +0530,
1,audio_first,3,4,25,2,100.52931869999156,,,,,,100.5160218999954,100.5292507666493,101.53406469998299,101.53406469998299,102.54671160000726,102.53175200000987,102.53181539999787,102.54671160000726,102.54671160000726,102.98229089999222,b,0.4323914999840781,None,p4,001,2024-12-06_18h38.15.873,soloproj6,2024.1.5,None,2024-12-06 18h38.34.574735 +0530,
1,visual_first,3,5,26,1,102.99726070000906,,,,,,102.98372139999992,103.99769096667684,102.99726070000906,,103.99721649999265,104.94719469998381,104.94726210000226,104.95388829999138,104.95388829999138,106.50026810000418,v,1.535329800011823,None,p4,001,2024-12-06_18h38.15.873,soloproj6,2024.1.5,None,2024-12-06 18h38.34.574735 +0530,
2,audio_first,3,6,27,4,106.51488229999086,,,,,,106.50167769999825,106.51497156665233,108.51618969999254,,109.51610269999946,109.5009202999936,109.5009829000046,109.51610269999946,109.51610269999946,109.98499759999686,s,0.46394689998123795,None,p4,001,2024-12-06_18h38.15.873,soloproj6,2024.1.5,None,2024-12-06 18h38.34.574735 +0530,
1,audio_first,4,0,28,2,109.99950370000442,,,,,,109.98643009999068,109.99957106667377,110.98350549998577,,111.98365059998468,111.96849759999895,111.96856099998695,111.98365059998468,111.98365059998468,112.78611169999931,s,0.7991250999912154,None,p4,001,2024-12-06_18h38.15.873,soloproj6,2024.1.5,None,2024-12-06 18h38.34.574735 +0530,
2,audio_first,4,1,29,4,112.800628099998,,,,,,112.78753890001099,112.80067986666496,114.80182200000854,,115.80186509998748,115.78659159998642,115.78665490000276,115.80186509998748,115.80186509998748,116.37090929999249,s,0.5625784000148997,None,p4,001,2024-12-06_18h38.15.873,soloproj6,2024.1.5,None,2024-12-06 18h38.34.574735 +0530,
0,simulataneous,4,2,30,0,116.38578849998885,,,,,,116.37232659998699,116.38538336666922,116.38578849998885,,117.38677559999633,117.38029219998862,117.38035469999886,117.38677559999633,117.38677559999633,118.05458940000972,s,0.6572054999996908,None,p4,001,2024-12-06_18h38.15.873,soloproj6,2024.1.5,None,2024-12-06 18h38.34.574735 +0530,
2,visual_first,4,3,31,3,118.06970409999485,,,,,,118.05600399998366,120.07014416664994,118.06970409999485,121.07889760000398,119.06972800000221,121.07226039998932,121.07232810001005,121.07889760000398,121.07889760000398,121.7727823999885,v,0.6795634000154678,None,p4,001,2024-12-06_18h38.15.873,soloproj6,2024.1.5,None,2024-12-06 18h38.34.574735 +0530,
3,visual_first,4,4,32,5,121.78783919999842,,,,,,121.77421279999544,124.78854686665387,121.78783919999842,125.78974020000896,122.7877373000083,125.7825513999851,125.78262700000778,125.78974020000896,125.78974020000896,126.64137050000136,v,0.839196599990828,None,p4,001,2024-12-06_18h38.15.873,soloproj6,2024.1.5,None,2024-12-06 18h38.34.574735 +0530,
1,visual_first,4,5,33,1,126.65639610000653,,,,,,126.64280219998909,127.6567086666512,126.65639610000653,,127.6563734000083,128.64118509998661,128.64125349998358,128.64786349999486,128.64786349999486,129.09311310001067,v,0.4408789000008255,None,p4,001,2024-12-06_18h38.15.873,soloproj6,2024.1.5,None,2024-12-06 18h38.34.574735 +0530,
3,audio_first,4,6,34,6,129.10692729998846,,,,,,129.09454009999172,129.10691436665755,132.10844889999134,130.1147643000004,133.10831280000275,133.09337079999386,133.0934345999849,133.10831280000275,133.10831280000275,133.76060720000532,s,0.6436690000118688,None,p4,001,2024-12-06_18h38.15.873,soloproj6,2024.1.5,None,2024-12-06 18h38.34.574735 +0530,
