Offset,Order,trials.thisRepN,trials.thisTrialN,trials.thisN,trials.thisIndex,thisRow.t,notes,instructions.started,text.started,instructions.stopped,test_routine.started,visual_stim.started,visual_stim.stopped,sound_stim.started,test_routine.stopped,respond_now.started,text_2.started,key_resp_2.started,respond_now.stopped,key_resp_2.keys,key_resp_2.rt,key_resp_2.duration,sound_stim.stopped,participant,session,date,expName,psychopyVersion,frameRate,expStart,
,,,,,,,,0.0041705000039655715,0.012694100005319342,8.003272600006312,,,,,,,,,,,,,,p5,001,2024-12-06_18h41.06.486,soloproj6,2024.1.5,None,2024-12-06 18h41.22.988741 +0530,
2,visual_first,0,0,0,3,8.035422100016149,,,,,8.02326760001597,8.035422100016149,9.03619750001235,10.003254266692482,10.976651000004495,10.9767224000243,10.98696540002129,10.98696540002129,11.796350800024811,v,0.7906500999815762,None,,p5,001,2024-12-06_18h41.06.486,soloproj6,2024.1.5,None,2024-12-06 18h41.22.988741 +0530,
0,simulataneous,0,1,1,0,11.810084800003096,,,,,11.798418200021842,11.810084800003096,12.829974899999797,11.803924066687857,12.820463500014739,12.820528200012632,12.829974899999797,12.829974899999797,13.123182800016366,b,0.2873709999839775,None,12.819243300007656,p5,001,2024-12-06_18h41.06.486,soloproj6,2024.1.5,None,2024-12-06 18h41.22.988741 +0530,
3,audio_first,0,2,2,6,13.137713800009806,,,,,13.1246100999997,16.13941280002473,17.139382000023033,13.137808166681014,17.124253000016324,17.12431730001117,17.139382000023033,17.139382000023033,17.608154500019737,s,0.4570421999960672,None,14.138085500017041,p5,001,2024-12-06_18h41.06.486,soloproj6,2024.1.5,None,2024-12-06 18h41.22.988741 +0530,
2,audio_first,0,3,3,4,17.622765600011917,,,,,17.609620500006713,19.624063200026285,20.624046800017823,17.622822266687095,20.60888100002194,20.608945800020592,20.624046800017823,20.624046800017823,21.47659260002547,s,0.8476953999779653,None,18.630695200001355,p5,001,2024-12-06_18h41.06.486,soloproj6,2024.1.5,None,2024-12-06 18h41.22.988741 +0530,
1,visual_first,0,4,4,1,21.491391800023848,,,,,21.478019800008042,21.491391800023848,22.49131790001411,22.49182636666616,23.489498600014485,23.48956650000764,23.496148100006394,23.496148100006394,24.260708000016166,v,0.7506218000198714,None,23.496148100006394,p5,001,2024-12-06_18h41.06.486,soloproj6,2024.1.5,None,2024-12-06 18h41.22.988741 +0530,
1,audio_first,0,5,5,2,24.275320200016722,,,,,24.26213800002006,25.27612730002147,26.276147000025958,24.275390566679803,26.260968600021442,26.26103290001629,26.276147000025958,26.276147000025958,27.828773600020213,b,1.5393336999986786,None,25.27612730002147,p5,001,2024-12-06_18h41.06.486,soloproj6,2024.1.5,None,2024-12-06 18h41.22.988741 +0530,
3,visual_first,0,6,6,5,27.843788700003643,,,,,27.83019500001683,27.843788700003643,28.843739100004314,30.84456296667146,31.834084600006463,31.834150700015016,31.844934799999464,31.844934799999464,37.48260190000292,v,5.6348373000219,None,31.844934799999464,p5,001,2024-12-06_18h41.06.486,soloproj6,2024.1.5,None,2024-12-06 18h41.22.988741 +0530,
3,audio_first,1,0,7,6,37.49711700002081,,,,,37.48405379999895,40.49866180002573,41.498694900015835,37.4970592666689,41.483493900013855,41.483557700004894,41.498694900015835,41.498694900015835,42.06758230002015,s,0.5615984000032768,None,,p5,001,2024-12-06_18h41.06.486,soloproj6,2024.1.5,None,2024-12-06 18h41.22.988741 +0530,
1,visual_first,1,1,8,1,42.08260990001145,,,,,42.06885930002318,42.08260990001145,43.08252029999858,43.08296206666661,44.0176273000252,44.01769140001852,44.03300300001865,44.03300300001865,45.43545150000136,v,1.386678499984555,None,,p5,001,2024-12-06_18h41.06.486,soloproj6,2024.1.5,None,2024-12-06 18h41.22.988741 +0530,
1,audio_first,1,2,9,2,45.450108300021384,,,,,45.43689130002167,46.43424840000807,47.43432460000622,45.45014266667228,47.419106000015745,47.41917000000831,47.43432460000622,47.43432460000622,47.60294020001311,b,0.16342319999239407,None,,p5,001,2024-12-06_18h41.06.486,soloproj6,2024.1.5,None,2024-12-06 18h41.22.988741 +0530,
0,simulataneous,1,3,10,0,47.61810040002456,,,,,47.60436760002631,47.61810040002456,48.61812759999884,47.61764406666431,48.602905800013104,48.60296940000262,48.61812759999884,48.61812759999884,49.08691010001348,b,0.45477099998970516,None,,p5,001,2024-12-06_18h41.06.486,soloproj6,2024.1.5,None,2024-12-06 18h41.22.988741 +0530,
2,audio_first,1,4,11,4,49.10151279999991,,,,,49.088345199998,51.10273270000471,52.102734500018414,49.10161236668161,52.08755130000645,52.087615900003584,52.102734500018414,52.102734500018414,52.705123400024604,s,0.5881724999926519,None,,p5,001,2024-12-06_18h41.06.486,soloproj6,2024.1.5,None,2024-12-06 18h41.22.988741 +0530,
3,visual_first,1,5,12,5,52.719966000004206,,,,,52.706549800001085,52.719966000004206,53.719987900025444,55.72070096669292,56.688909300020896,56.688982899999246,56.69603580000694,56.69603580000694,57.15678640000988,v,0.4441281999752391,None,,p5,001,2024-12-06_18h41.06.486,soloproj6,2024.1.5,None,2024-12-06 18h41.22.988741 +0530,
2,visual_first,1,6,13,3,57.17177490002359,,,,,57.15831120000803,57.17177490002359,58.17163230001461,59.17207836668628,60.16512460002559,60.16519720002543,60.17249040000024,60.17249040000024,60.60809300001711,s,0.4241335999977309,None,60.17249040000024,p5,001,2024-12-06_18h41.06.486,soloproj6,2024.1.5,None,2024-12-06 18h41.22.988741 +0530,
3,audio_first,2,0,14,6,60.6226518000185,,,,,60.60962010000367,63.62420450002537,64.6241757000098,60.622701566670244,64.60899610002525,64.60906200000318,64.6241757000098,64.6241757000098,65.14316910001799,s,0.5092658999783453,None,61.6230298000155,p5,001,2024-12-06_18h41.06.486,soloproj6,2024.1.5,None,2024-12-06 18h41.22.988741 +0530,
2,visual_first,2,1,15,3,65.158106900024,,,,,65.14460910001071,65.158106900024,66.15814200000023,67.1584092666783,68.12369269999908,68.12376890002633,68.13078860001406,68.13078860001406,68.66114670000388,v,0.5179386000090744,None,,p5,001,2024-12-06_18h41.06.486,soloproj6,2024.1.5,None,2024-12-06 18h41.22.988741 +0530,
0,simulataneous,2,2,16,0,68.6761815000209,,,,,68.6625869999989,68.6761815000209,69.67652190002264,68.67572326667529,69.66991560001043,69.66998180001974,69.67652190002264,69.67652190002264,70.11164800002007,b,0.4233042999985628,None,69.67652190002264,p5,001,2024-12-06_18h41.06.486,soloproj6,2024.1.5,None,2024-12-06 18h41.22.988741 +0530,
3,visual_first,2,3,17,5,70.12666860001627,,,,,70.1131043000205,70.12666860001627,71.12658670000383,73.1274125666862,74.0613114000007,74.0613792000222,74.06795480000437,74.06795480000437,74.56365190001088,v,0.4863591000030283,None,,p5,001,2024-12-06_18h41.06.486,soloproj6,2024.1.5,None,2024-12-06 18h41.22.988741 +0530,
2,audio_first,2,4,18,4,74.57801330002258,,,,,74.5651147000026,76.57916600001045,77.5791436000145,74.57806376667965,77.5639719000028,77.56403790001059,77.5791436000145,77.5791436000145,77.93130160000874,s,0.33620809999410994,None,,p5,001,2024-12-06_18h41.06.486,soloproj6,2024.1.5,None,2024-12-06 18h41.22.988741 +0530,
1,visual_first,2,5,19,1,77.94631379999919,,,,,77.93276320002042,77.94631379999919,78.94633970002178,78.94680176666976,79.9410046999983,79.94107190001523,79.94762720001745,79.94762720001745,80.6322583000001,v,0.6709379999956582,None,79.94762720001745,p5,001,2024-12-06_18h41.06.486,soloproj6,2024.1.5,None,2024-12-06 18h41.22.988741 +0530,
1,audio_first,2,6,20,2,80.64695350002148,,,,,80.63370930001838,81.6526417999994,82.66442200000165,80.64695816667906,82.64932200001203,82.64938590000384,82.66442200000165,82.66442200000165,83.90027170002577,b,1.2279622000060044,None,81.6526417999994,p5,001,2024-12-06_18h41.06.486,soloproj6,2024.1.5,None,2024-12-06 18h41.22.988741 +0530,
3,visual_first,3,0,21,5,83.91528140002629,,,,,83.90172910000547,83.91528140002629,84.91529840001022,86.91599796669131,87.89013910002541,87.8902144000167,87.89979830000084,87.89979830000084,90.18589059999795,v,2.279664600006072,None,,p5,001,2024-12-06_18h41.06.486,soloproj6,2024.1.5,None,2024-12-06 18h41.22.988741 +0530,
3,audio_first,3,1,22,6,90.20062640000833,,,,,90.18711250001797,93.20222430001013,94.20216790001723,90.20065886667386,94.18700500001432,94.18707050001831,94.20216790001723,94.20216790001723,94.9713290000218,s,0.7525353000091854,None,91.20841500000097,p5,001,2024-12-06_18h41.06.486,soloproj6,2024.1.5,None,2024-12-06 18h41.22.988741 +0530,
2,visual_first,3,2,23,3,94.98624910000945,,,,,94.97281030000886,94.98624910000945,95.98618030000944,96.98666896668534,97.97677790001035,97.97684740001569,97.9869457000168,97.9869457000168,98.77276050002547,v,0.7813957000034861,None,97.9869457000168,p5,001,2024-12-06_18h41.06.486,soloproj6,2024.1.5,None,2024-12-06 18h41.22.988741 +0530,
2,audio_first,3,3,24,4,98.78727140001138,,,,,98.77421220001997,100.78844600002049,101.78839830000652,98.78730826668131,101.77341280001565,101.77347820001887,101.78839830000652,101.78839830000652,102.44061420002254,s,0.6385863999894354,None,99.78764429999865,p5,001,2024-12-06_18h41.06.486,soloproj6,2024.1.5,None,2024-12-06 18h41.22.988741 +0530,
1,visual_first,3,4,25,1,102.45574480001233,,,,,102.44205170002533,102.45574480001233,103.45568230000208,103.4561499666927,104.40737410000293,104.40744210002595,104.41408040001988,104.41408040001988,109.11008000001311,s,4.688887800002703,None,,p5,001,2024-12-06_18h41.06.486,soloproj6,2024.1.5,None,2024-12-06 18h41.22.988741 +0530,
0,simulataneous,3,5,26,0,109.12499030001345,,,,,109.11150840000482,109.12499030001345,110.1255674000131,109.12464606669188,110.11890310002491,110.11896980000893,110.1255674000131,110.1255674000131,113.6117716000008,v,3.4827819999773055,None,110.1255674000131,p5,001,2024-12-06_18h41.06.486,soloproj6,2024.1.5,None,2024-12-06 18h41.22.988741 +0530,
1,audio_first,3,6,27,2,113.6262908000208,,,,,113.6132215000107,114.61036560000503,115.61044140000013,113.62635526666806,115.59520330000669,115.59526670002379,115.61044140000013,115.61044140000013,117.17976890000864,v,1.5536892999953125,None,,p5,001,2024-12-06_18h41.06.486,soloproj6,2024.1.5,None,2024-12-06 18h41.22.988741 +0530,
0,simulataneous,4,0,28,0,117.19477070000721,,,,,117.18122500000754,117.19477070000721,118.19477110001026,117.19432176667421,118.17957180002122,118.17963470000541,118.19477110001026,118.19477110001026,120.13086260002456,b,1.9306053000036627,None,,p5,001,2024-12-06_18h41.06.486,soloproj6,2024.1.5,None,2024-12-06 18h41.22.988741 +0530,
1,audio_first,4,1,29,2,120.14535190002061,,,,,120.1323067000194,121.14641560000018,122.14624240002013,120.14540386668911,122.13112940001884,122.13119320000987,122.14624240002013,122.14624240002013,122.79867109999759,s,0.6419291999773122,None,121.14641560000018,p5,001,2024-12-06_18h41.06.486,soloproj6,2024.1.5,None,2024-12-06 18h41.22.988741 +0530,
3,audio_first,4,2,30,6,122.81313770002453,,,,,122.80012660002103,125.81475869999849,126.81474500001059,122.81315986666984,126.79955330002122,126.79961690001073,126.81474500001059,126.81474500001059,129.20087830000557,b,2.3775476000155322,None,,p5,001,2024-12-06_18h41.06.486,soloproj6,2024.1.5,None,2024-12-06 18h41.22.988741 +0530,
2,audio_first,4,3,31,4,129.2155568000162,,,,,129.20232670000405,131.21679130001576,132.21685779999825,129.21558686669258,132.20158730002004,132.20165030000499,132.21685779999825,132.21685779999825,135.9702726000105,v,3.736961699993117,None,,p5,001,2024-12-06_18h41.06.486,soloproj6,2024.1.5,None,2024-12-06 18h41.22.988741 +0530,
3,visual_first,4,4,32,5,135.98536109999986,,,,,135.9717052000051,135.98536109999986,136.98518630000763,138.98604106667725,139.96710130001884,139.9671958000108,139.97421280000708,139.97421280000708,141.20570950000547,v,1.2250725000048988,None,,p5,001,2024-12-06_18h41.06.486,soloproj6,2024.1.5,None,2024-12-06 18h41.22.988741 +0530,
1,visual_first,4,5,33,1,141.22067680000328,,,,,141.20716960000573,141.22067680000328,142.22058970000944,142.22104706667986,143.2080206000246,143.20811050001066,143.21469230001094,143.21469230001094,143.739856900007,v,0.5091054000076838,None,,p5,001,2024-12-06_18h41.06.486,soloproj6,2024.1.5,None,2024-12-06 18h41.22.988741 +0530,
2,visual_first,4,6,34,3,143.7548832000175,,,,,143.74131490002037,143.7548832000175,144.75482300002477,145.75527066667954,146.76018800001475,146.76025430002483,146.7669290000049,146.7669290000049,147.29133760000695,v,0.5185116000066046,None,146.7669290000049,p5,001,2024-12-06_18h41.06.486,soloproj6,2024.1.5,None,2024-12-06 18h41.22.988741 +0530,
