study_test,test,reference,old_new,trials.thisRepN,trials.thisTrialN,trials.thisN,trials.thisIndex,trials_2.thisRepN,trials_2.thisTrialN,trials_2.thisN,trials_2.thisIndex,thisRow.t,notes,trial.started,text.started,slider.started,trial.stopped,slider.response,slider.rt,testroutine.started,text_2.started,textbox.started,text_3.started,mouse.started,testroutine.stopped,textbox.text,mouse.x,mouse.y,mouse.leftButton,mouse.midButton,mouse.rightButton,mouse.time,mouse.clicked_name,participant,session,date,expName,psychopyVersion,frameRate,expStart,
laptop,,,,0,0,0,5,,,,,0.038597799837589264,,0.00654119998216629,0.038597799837589264,0.038597799837589264,7.013345500454307,1.9851851851851852,6.983382900245488,,,,,,,,,,,,,,,WP3,001,2024-11-11_11h41.20.691,wordpriming,2024.1.5,None,2024-11-11 11h41.34.421996 +0530,
book,,,,0,1,1,0,,,,,7.028865800239146,,7.0136887999251485,7.028865800239146,7.028865800239146,8.797510400414467,1.9037037037037037,1.7616971004754305,,,,,,,,,,,,,,,WP3,001,2024-11-11_11h41.20.691,wordpriming,2024.1.5,None,2024-11-11 11h41.34.421996 +0530,
cruise,,,,0,2,2,11,,,,,8.813593500293791,,8.797758400440216,8.813593500293791,8.813593500293791,10.69801149982959,2.8,1.8833178002387285,,,,,,,,,,,,,,,WP3,001,2024-11-11_11h41.20.691,wordpriming,2024.1.5,None,2024-11-11 11h41.34.421996 +0530,
poster ,,,,0,3,3,14,,,,,10.712861900217831,,10.69825780019164,10.712861900217831,10.712861900217831,12.165361699648201,1.5925925925925926,1.4491838999092579,,,,,,,,,,,,,,,WP3,001,2024-11-11_11h41.20.691,wordpriming,2024.1.5,None,2024-11-11 11h41.34.421996 +0530,
board,,,,0,4,4,4,,,,,12.181143100373447,,12.165604899637401,12.181143100373447,12.181143100373447,13.487796200439334,2.0777777777777775,1.2937823999673128,,,,,,,,,,,,,,,WP3,001,2024-11-11_11h41.20.691,wordpriming,2024.1.5,None,2024-11-11 11h41.34.421996 +0530,
marble,,,,0,5,5,3,,,,,13.506952700205147,,13.488324300386012,13.506952700205147,13.506952700205147,14.454123499803245,1.2074074074074075,0.9351057996973395,,,,,,,,,,,,,,,WP3,001,2024-11-11_11h41.20.691,wordpriming,2024.1.5,None,2024-11-11 11h41.34.421996 +0530,
keys,,,,0,6,6,13,,,,,14.47837860044092,,14.45473220013082,14.47837860044092,14.47837860044092,15.589944600127637,2.6555555555555554,1.109850600361824,,,,,,,,,,,,,,,WP3,001,2024-11-11_11h41.20.691,wordpriming,2024.1.5,None,2024-11-11 11h41.34.421996 +0530,
phone,,,,0,7,7,2,,,,,15.605746099725366,,15.590192699804902,15.605746099725366,15.605746099725366,16.507744800299406,3.9925925925925925,0.886926400475204,,,,,,,,,,,,,,,WP3,001,2024-11-11_11h41.20.691,wordpriming,2024.1.5,None,2024-11-11 11h41.34.421996 +0530,
pastry,,,,0,8,8,9,,,,,16.526438900269568,,16.508308100514114,16.526438900269568,16.526438900269568,17.476902400143445,3.6148148148148147,0.943886399269104,,,,,,,,,,,,,,,WP3,001,2024-11-11_11h41.20.691,wordpriming,2024.1.5,None,2024-11-11 11h41.34.421996 +0530,
cushion ,,,,0,9,9,1,,,,,17.49429429974407,,17.477252800017595,17.49429429974407,17.49429429974407,18.184406500309706,4.574074074074074,0.6828576000407338,,,,,,,,,,,,,,,WP3,001,2024-11-11_11h41.20.691,wordpriming,2024.1.5,None,2024-11-11 11h41.34.421996 +0530,
mouse,,,,0,10,10,8,,,,,18.19917600043118,,18.184666199609637,18.19917600043118,18.19917600043118,19.05126759968698,2.977777777777778,0.8484311001375318,,,,,,,,,,,,,,,WP3,001,2024-11-11_11h41.20.691,wordpriming,2024.1.5,None,2024-11-11 11h41.34.421996 +0530,
case ,,,,0,11,11,10,,,,,19.066849599592388,,19.051517699845135,19.066849599592388,19.066849599592388,19.910443199798465,5,0.828371699899435,,,,,,,,,,,,,,,WP3,001,2024-11-11_11h41.20.691,wordpriming,2024.1.5,None,2024-11-11 11h41.34.421996 +0530,
police,,,,0,12,12,12,,,,,19.934310699813068,,19.91120269987732,19.934310699813068,19.934310699813068,20.768683400005102,3.9333333333333336,0.8295998992398381,,,,,,,,,,,,,,,WP3,001,2024-11-11_11h41.20.691,wordpriming,2024.1.5,None,2024-11-11 11h41.34.421996 +0530,
chart,,,,0,13,13,6,,,,,20.783531200140715,,20.768944200128317,20.783531200140715,20.783531200140715,21.58559579961002,2.4,0.7945530004799366,,,,,,,,,,,,,,,WP3,001,2024-11-11_11h41.20.691,wordpriming,2024.1.5,None,2024-11-11 11h41.34.421996 +0530,
T-shirt,,,,0,14,14,7,,,,,21.601732700131834,,21.585845299996436,21.601732700131834,21.601732700131834,22.396161200478673,3.2296296296296294,0.787499999627471,,,,,,,,,,,,,,,WP3,001,2024-11-11_11h41.20.691,wordpriming,2024.1.5,None,2024-11-11 11h41.34.421996 +0530,
,p_st_y,pastry,old ,,,,,0,0,0,4,22.415823499672115,,,,,,,,22.40337620023638,22.415823499672115,22.415823499672115,22.415823499672115,0.009516299702227116,26.868890800513327,pastry,[0.021296296296296296],[-0.31203703703703706],[1],[0],[0],[4.462621700018644],['text_3'],WP3,001,2024-11-11_11h41.20.691,wordpriming,2024.1.5,None,2024-11-11 11h41.34.421996 +0530,
,p_st_r,poster,old,,,,,0,1,1,9,26.884739100001752,,,,,,,,26.869735199958086,26.884739100001752,26.884739100001752,26.884739100001752,0.0018480001017451286,31.120433599688113,poster,[0.021296296296296296],[-0.31203703703703706],[1],[0],[0],[4.248635199852288],['text_3'],WP3,001,2024-11-11_11h41.20.691,wordpriming,2024.1.5,None,2024-11-11 11h41.34.421996 +0530,
,_o__d,board,old ,,,,,0,2,2,10,31.136677799746394,,,,,,,,31.12095359992236,31.136677799746394,31.136677799746394,31.136677799746394,0.0018352000042796135,34.45503470022231,board,[0.021296296296296296],[-0.31203703703703706],[1],[0],[0],[3.332004200667143],['text_3'],WP3,001,2024-11-11_11h41.20.691,wordpriming,2024.1.5,None,2024-11-11 11h41.34.421996 +0530,
,c_s_io_,cushion,old ,,,,,0,3,3,12,34.470850800164044,,,,,,,,34.45554499980062,34.470850800164044,34.470850800164044,34.470850800164044,0.001845499500632286,39.79059110023081,cushion,[0.021296296296296296],[-0.31203703703703706],[1],[0],[0],[5.332873100414872],['text_3'],WP3,001,2024-11-11_11h41.20.691,wordpriming,2024.1.5,None,2024-11-11 11h41.34.421996 +0530,
,_ru_i_se,cruise,old ,,,,,0,4,4,6,39.806238000281155,,,,,,,,39.7912304000929,39.806238000281155,39.806238000281155,39.806238000281155,0.002572299912571907,43.75880239997059,cruise,[0.024074074074074074],[-0.31203703703703706],[1],[0],[0],[3.9647072004154325],['text_3'],WP3,001,2024-11-11_11h41.20.691,wordpriming,2024.1.5,None,2024-11-11 11h41.34.421996 +0530,
,_ot_l_,bottle,new,,,,,0,5,5,16,43.77444399986416,,,,,,,,43.759383499622345,43.77444399986416,43.77444399986416,43.77444399986416,0.0022641997784376144,46.378415300510824,bottle,[0.030555555555555555],[-0.3175925925925926],[1],[0],[0],[2.6157219000160694],['text_3'],WP3,001,2024-11-11_11h41.20.691,wordpriming,2024.1.5,None,2024-11-11 11h41.34.421996 +0530,
,T_hi_t,tshirt,old ,,,,,0,6,6,2,46.3937138998881,,,,,,,,46.380694700405,46.3937138998881,46.3937138998881,46.3937138998881,0.006367700174450874,48.82758620008826,tshirt,[0.030555555555555555],[-0.3175925925925926],[1],[0],[0],[2.440626800060272],['text_3'],WP3,001,2024-11-11_11h41.20.691,wordpriming,2024.1.5,None,2024-11-11 11h41.34.421996 +0530,
,p_nc_l,pencil ,new,,,,,0,7,7,14,48.84321490023285,,,,,,,,48.82815060019493,48.84321490023285,48.84321490023285,48.84321490023285,0.002646699547767639,52.86211770027876,pencil,[0.04722222222222222],[-0.32685185185185184],[1],[0],[0],[4.0310118002817035],['text_3'],WP3,001,2024-11-11_11h41.20.691,wordpriming,2024.1.5,None,2024-11-11 11h41.34.421996 +0530,
,P_li_e,police,old,,,,,0,8,8,7,52.87842569965869,,,,,,,,52.862627799622715,52.87842569965869,52.87842569965869,52.87842569965869,0.0036442000418901443,56.21342900022864,police,"[0.05555555555555555, 0.04259259259259259]","[-0.3296296296296296, -0.30092592592592593]","[1, 1]","[0, 0]","[0, 0]","[2.262998499907553, 3.3468597000464797]",['text_3'],WP3,001,2024-11-11_11h41.20.691,wordpriming,2024.1.5,None,2024-11-11 11h41.34.421996 +0530,
,t_bl_,table,new,,,,,0,9,9,13,56.229289799928665,,,,,,,,56.21403369959444,56.229289799928665,56.229289799928665,56.229289799928665,0.0021011000499129295,58.83113189972937,table,[0.04259259259259259],[-0.3],[1],[0],[0],[2.61470689997077],['text_3'],WP3,001,2024-11-11_11h41.20.691,wordpriming,2024.1.5,None,2024-11-11 11h41.34.421996 +0530,
,l_pt_p,laptop,old ,,,,,0,10,10,0,58.847319800406694,,,,,,,,58.831645499914885,58.847319800406694,58.847319800406694,58.847319800406694,0.0020183995366096497,61.41531889978796,laptop,[0.05555555555555555],[-0.30462962962962964],[1],[0],[0],[2.581352200359106],['text_3'],WP3,001,2024-11-11_11h41.20.691,wordpriming,2024.1.5,None,2024-11-11 11h41.34.421996 +0530,
,C_s_,case,old,,,,,0,11,11,5,61.43126489967108,,,,,,,,61.415836200118065,61.43126489967108,61.43126489967108,61.43126489967108,0.002574400044977665,61.7154935002327,,[0.05555555555555555],[-0.30462962962962964],[1],[0],[0],[0.29678939934819937],['text_3'],WP3,001,2024-11-11_11h41.20.691,wordpriming,2024.1.5,None,2024-11-11 11h41.34.421996 +0530,
,m_us_,mouse,old,,,,,0,12,12,3,61.73128379974514,,,,,,,,61.716001000255346,61.73128379974514,61.73128379974514,61.73128379974514,0.0018015997484326363,65.03337850049138,mouse,[0.05555555555555555],[-0.30462962962962964],[1],[0],[0],[3.3152366997674108],['text_3'],WP3,001,2024-11-11_11h41.20.691,wordpriming,2024.1.5,None,2024-11-11 11h41.34.421996 +0530,
,m_r_le,marble,old,,,,,0,13,13,11,65.04931879974902,,,,,,,,65.03396349959075,65.04931879974902,65.04931879974902,65.04931879974902,0.002121000550687313,69.06811670027673,marble,[0.05555555555555555],[-0.30462962962962964],[1],[0],[0],[4.0317639000713825],['text_3'],WP3,001,2024-11-11_11h41.20.691,wordpriming,2024.1.5,None,2024-11-11 11h41.34.421996 +0530,
,K_y_,keys,old ,,,,,0,14,14,8,69.08412230014801,,,,,,,,69.06863790005445,69.08412230014801,69.08412230014801,69.08412230014801,0.002634800039231777,72.83646719995886,keys,[0.05555555555555555],[-0.30462962962962964],[1],[0],[0],[3.764888299629092],['text_3'],WP3,001,2024-11-11_11h41.20.691,wordpriming,2024.1.5,None,2024-11-11 11h41.34.421996 +0530,
,c_m__a,camera,new,,,,,0,15,15,17,72.85223389975727,,,,,,,,72.83699810039252,72.85223389975727,72.85223389975727,72.85223389975727,0.002188899554312229,76.22256360016763,camera,[0.05555555555555555],[-0.30462962962962964],[1],[0],[0],[3.3823245000094175],['text_3'],WP3,001,2024-11-11_11h41.20.691,wordpriming,2024.1.5,None,2024-11-11 11h41.34.421996 +0530,
,_ha_t,chart,old,,,,,0,16,16,1,76.24970200005919,,,,,,,,76.22484469972551,76.24970200005919,76.24970200005919,76.24970200005919,0.007750899530947208,79.87415910046548,chart,[0.05555555555555555],[-0.30462962962962964],[1],[0],[0],[3.64092590007931],['text_3'],WP3,001,2024-11-11_11h41.20.691,wordpriming,2024.1.5,None,2024-11-11 11h41.34.421996 +0530,
,v_s_,vase,new,,,,,0,17,17,15,79.89971469994634,,,,,,,,79.87575060036033,79.89971469994634,79.89971469994634,79.89971469994634,0.010191800072789192,83.70744139980525,vase,[0.05555555555555555],[-0.30462962962962964],[1],[0],[0],[3.8212711000815034],['text_3'],WP3,001,2024-11-11_11h41.20.691,wordpriming,2024.1.5,None,2024-11-11 11h41.34.421996 +0530,
